Wavelength	alpha
250	1804000
260	1930000
270	2139000
280	2332000
290	2302000
300	1797000
310	1469000
320	1289000
330	1178000
340	1093000
350	1044000
360	1017000
370	726900
380	325400
390	162100
400	102500
410	73950
420	52940
430	40230
440	31990
450	26630
460	21610
470	18780
480	15660
490	13800
500	12200
510	10800
520	9553
530	8252
540	6957
550	6406
560	5958
570	5235
580	4744
590	4276
600	3879
610	3555
620	3407
630	3245
640	2885
650	2793
660	2591
670	2402
680	2226
690	2061
700	1907
710	1763
720	1629
730	1503
740	1386
750	1276
760	1173
770	1078
780	988.2
790	904.9
800	827.1
810	754.6
820	687.1
830	624.3
840	565.9
850	511.6
860	461.2
870	414.5
880	371.3
890	331.3
900	294.5
910	260.5
920	229.3
930	199.4
940	174.6
950	150.7
960	128.6
970	108.9
980	91.47
990	75.7
1000	61.6
1010	49.29
1020	38.73
1030	29.34
1040	21.7
1050	15.61
1060	10.96
1070	7.965
1080	6.07
1090	4.585
1100	3.452
1110	2.594
1120	1.915
1130	1.377
1140	0.9503
1150	0.6215
1160	0.3713
1170	0.1896
1180	0.05917
1190	0.02445
1200	0.01456
1210	0.008398
1220	0.004938
1230	0.002772
1240	0.001451
1250	0.0005911
1260	0.0002329
1270	0.0001258
1280	0.00007391
1290	0.00004364
1300	0.00002632
1310	0.00001521
1320	0.000008301
1330	0.000003972
1340	0.0000017
1350	9.707E-07
1360	5.813E-07
1370	0.000000358
1380	2.401E-07
1390	1.571E-07
1400	9.36E-08
1410	5.385E-08
1420	3.796E-08
1430	1.791E-08
1440	1.203E-08
1450	9.447E-09

