Wavelength  alpha
941 1.71E+02
948 1.32E+02
955 1.20E+02
962 1.05E+02
969 9.91E+01
976 9.46E+01
983 8.64E+01
990 7.79E+01
997 6.89E+01
1004    5.96E+01
1011    5.13E+01
1018    4.37E+01
1025    3.66E+01
1032    3.03E+01
1039    2.46E+01
1046    1.97E+01
1053    1.56E+01
1060    1.21E+01
1067    9.58E+00
1074    7.85E+00
1081    6.46E+00
1088    5.35E+00
1095    4.40E+00
1102    3.59E+00
1109    2.95E+00
1116    2.41E+00
1123    1.94E+00
1130    1.54E+00
1134    1.33E+00
1137    1.20E+00
1141    1.02E+00
1148    7.70E-01
1155    5.54E-01
1162    3.73E-01
1169    2.31E-01
1176    1.11E-01
1183    4.62E-02
1190    2.80E-02
1197    1.93E-02
1204    1.35E-02
1211    9.39E-03
1218    6.64E-03
1225    4.59E-03
1232    3.07E-03
1239    1.93E-03
1246    1.10E-03
1253    5.27E-04
1260    2.72E-04
1267    1.73E-04
1274    1.20E-04
1281    8.48E-05
1288    6.00E-05
1295    4.24E-05
1302    3.00E-05
1309    2.08E-05
1316    1.41E-05
1323    8.99E-06
1330    5.64E-06
1337    3.36E-06
1344    2.23E-06
1351    1.65E-06
1358    1.19E-06
1365    9.46E-07
1372    6.44E-07
1379    5.75E-07
1386    4.57E-07
1393    4.09E-07
1400    3.14E-07
1407    2.27E-07
1414    2.04E-07
1421    1.42E-07