Wavelength	n		wl	k	alpha
(nm)			(nm)		
250	1.694		250	3.666	1842732.6
260	1.8		260	4.072	1968087
270	2.129		270	4.69	2182825.1
280	3.052		280	5.258	2359784.9
290	4.426		290	5.16	2235947.3
300	5.055		300	4.13	1729970.4
310	5.074		310	3.552	1439862.9
320	5.102		320	3.259	1279806.3
330	5.179		330	3.072	1169814.9
340	5.293		340	2.949	1089947.9
350	5.483		350	2.897	1040136.4
360	6.014		360	2.922	1019970.4
370	6.863		370	2.052	696924.12
380	6.548		380	0.886	292994.85
390	5.976		390	0.4655	149990.91
400	5.587		400	0.303	95190.257
410	5.305		410	0.2199	67398.656
420	5.091		420	0.1671	49996.203
430	4.925		430	0.1341	39189.542
440	4.793		440	0.1089	31101.767
450	4.676		450	9.13E-02	25501.355
460	4.577		460	7.69E-02	20999.498
470	4.491		470	6.43E-02	17199.886
480	4.416		480	5.65E-02	14799.519
490	4.348		490	4.95E-02	12699.728
500	4.293		500	4.42E-02	11101.132
510	4.239		510	3.94E-02	9700.7453
520	4.192		520	3.64E-02	8798.876
530	4.15		530	3.31E-02	7850.4251
540	4.11		540	3.03E-02	7051.1302
550	4.077		550	2.80E-02	6390.5707
560	4.044		560	2.58E-02	5780.5305
570	4.015		570	2.41E-02	5319.7636
580	3.986		580	2.25E-02	4879.2184
590	3.962		590	2.11E-02	4489.8151
600	3.939		600	1.98E-02	4140.6191
610	3.916		610	1.85E-02	3809.0523
620	3.895		620	1.74E-02	3520.6106
630	3.879		630	1.64E-02	3269.251
640	3.861		640	1.55E-02	3039.4909
650	3.844		650	1.45E-02	2809.0672
660	3.83		660	1.36E-02	2579.914
670	3.815		670	1.27E-02	2380.1081
680	3.8		680	1.20E-02	2210.2028
690	3.787		690	1.13E-02	2050.686
700	3.774		700	1.06E-02	1899.3172
710	3.762		710	1.00E-02	1769.9114
720	3.751		720	9.51E-03	1659.9827
730	3.741		730	8.95E-03	1539.9829
740	3.732		740	8.36E-03	1419.9999
750	3.723		750	7.76E-03	1300.0329
760	3.714		760	7.20E-03	1190.0022
770	3.705		770	6.74E-03	1099.9654
780	3.696		780	6.27E-03	1009.9818
790	3.688		790	5.83E-03	928.00261
800	3.681		800	5.41E-03	849.95789
810	3.674		810	5.00E-03	774.92619
820	3.668		820	4.61E-03	706.93497
830	3.662		830	4.27E-03	646.94098
840	3.656		840	3.95E-03	591.06822
850	3.65		850	3.62E-03	535.03171
860	3.644		860	3.29E-03	480.00613
870	3.638		870	2.99E-03	432.02316
880	3.632		880	2.68E-03	382.9887
890	3.626		890	2.43E-03	342.96308
900	3.62		900	2.19E-03	306.06094
910	3.614		910	1.97E-03	272.04121
920	3.608		920	1.76E-03	239.99036
930	3.602		930	1.55E-03	209.98
940	3.597		940	1.37E-03	183.01448
950	3.592		950	1.19E-03	157.01349
960	3.587		960	1.02E-03	134.04129
970	3.582		970	8.80E-04	114.00419
980	3.578		980	7.48E-04	95.901924
990	3.574		990	6.24E-04	79.206215
1000	3.57		1000	5.09E-04	64.000526
1010	3.566		1010	4.11E-04	51.099093
1020	3.563		1020	3.24E-04	39.904387
1030	3.56		1030	2.48E-04	30.195891
1040	3.557		1040	1.87E-04	22.595301
1050	3.554		1050	1.36E-04	16.300378
1060	3.551		1060	9.36E-05	11.099899
1070	3.548		1070	6.81E-05	8.0001978
1080	3.546		1080	5.33E-05	6.2005731
1090	3.544		1090	4.08E-05	4.7002838
1100	3.541		1100	3.06E-05	3.5003054
1110	3.539		1110	2.39E-05	2.7000715
1120	3.537		1120	1.78E-05	2.0005213
1130	3.534		1130	1.35E-05	1.50018
1140	3.532		1140	9.07E-06	1.0000185
1150	3.53		1150	6.22E-06	0.68000456
1160	3.528		1160	3.88E-06	0.41999844
1170	3.526		1170	2.05E-06	0.21996519
1180	3.524		1180	6.10E-07	6.50E-02
1190	3.522		1190	3.41E-07	3.60E-02
1200	3.52		1200	2.10E-07	2.20E-02
1210	3.528		1210	1.25E-07	1.30E-02
1220	3.516		1220	7.96E-08	8.20E-03
1230	3.515		1230	4.60E-08	4.70E-03
1240	3.513		1240	2.37E-08	2.40E-03
1250	3.511		1250	9.95E-09	1.00E-03
1260	3.51		1260	3.61E-09	3.60E-04
1270	3.508		1270	2.02E-09	2.00E-04
1280	3.507		1280	1.22E-09	1.20E-04
1290	3.506		1290	7.29E-10	7.10E-05
1300	3.504		1300	4.66E-10	4.50E-05
1310	3.503		1310	2.82E-10	2.70E-05
1320	3.501		1320	1.68E-10	1.60E-05
1330	3.5		1330	8.47E-11	8.00E-06
1340	3.498		1340	3.73E-11	3.50E-06
1350	3.497		1350	1.83E-11	1.70E-06
1360	3.496		1360	1.08E-11	1.00E-06
1370	3.495		1370	7.30E-12	6.70E-07
1380	3.493		1380	4.94E-12	4.50E-07
1390	3.492		1390	2.77E-12	2.50E-07
1400	3.491		1400	2.23E-12	2.00E-07
1410	3.49		1410	1.68E-12	1.50E-07
1420	3.489		1420	9.61E-13	8.50E-08
1430	3.488		1430	8.76E-13	7.70E-08
1440	3.487		1440	4.81E-13	4.20E-08
1450	3.486		1450	3.69E-13	3.20E-08

